<Bundle xmlns="http://hl7.org/fhir">
   <type value="transaction"></type>
   <entry>
      <fullUrl value="urn:uuid:bb73165c-c7b9-4342-8e28-531f07fa7735"></fullUrl>
      <resource>
         <Organization xmlns="http://hl7.org/fhir">
            <meta>
               <profile value="http://highmed.org/fhir/StructureDefinition/highmed-organization"></profile>
               <tag>
                  <system value="http://highmed.org/fhir/CodeSystem/authorization-role"></system>
                  <code value="REMOTE"></code>
               </tag>
            </meta>
            <extension url="http://highmed.org/fhir/StructureDefinition/certificate-thumbprint">
               <valueString value="cf2be8be92e4d5c71969778771e7d89245d3647be276521f3ba13bf509c09814ec27396793bd72ea5fa8cb672d93663ca11c4a5b6fcc673360156ca18cb12fbc"></valueString>
            </extension>
            <identifier>
               <system value="http://highmed.org/fhir/NamingSystem/organization-identifier"></system>
               <value value="Test_Organization"></value>
            </identifier>
            <active value="true"></active>
            <type>
               <coding>
                  <system value="http://highmed.org/fhir/CodeSystem/organization-type"></system>
                  <code value="MeDIC"></code>
               </coding>
            </type>
            <name value="Test Organization"></name>
            <endpoint>
               <reference value="urn:uuid:b879e904-d666-45de-a995-accdd4429b79"></reference>
               <type value="Endpoint"></type>
            </endpoint>
         </Organization>
      </resource>
      <request>
         <method value="POST"></method>
         <url value="Organization"></url>
         <ifNoneExist value="identifier=http://highmed.org/fhir/NamingSystem/organization-identifier|Test_Organization"></ifNoneExist>
      </request>
   </entry>
   <entry>
      <fullUrl value="urn:uuid:b879e904-d666-45de-a995-accdd4429b79"></fullUrl>
      <resource>
         <Endpoint xmlns="http://hl7.org/fhir">
            <meta>
               <profile value="http://highmed.org/fhir/StructureDefinition/highmed-endpoint"></profile>
               <tag>
                  <system value="http://highmed.org/fhir/CodeSystem/authorization-role"></system>
                  <code value="REMOTE"></code>
               </tag>
            </meta>
            <identifier>
               <system value="http://highmed.org/fhir/NamingSystem/endpoint-identifier"></system>
               <value value="Test_Endpoint"></value>
            </identifier>
            <status value="active"></status>
            <connectionType>
               <system value="http://terminology.hl7.org/CodeSystem/endpoint-connection-type"></system>
               <code value="hl7-fhir-rest"></code>
            </connectionType>
            <name value="Test Endpoint"></name>
            <managingOrganization>
               <reference value="urn:uuid:bb73165c-c7b9-4342-8e28-531f07fa7735"></reference>
               <type value="Organization"></type>
            </managingOrganization>
            <payloadType>
               <coding>
                  <system value="http://hl7.org/fhir/resource-types"></system>
                  <code value="Task"></code>
               </coding>
            </payloadType>
            <payloadMimeType value="application/fhir+json"></payloadMimeType>
            <payloadMimeType value="application/fhir+xml"></payloadMimeType>
            <address value="https://localhost/fhir"></address>
         </Endpoint>
      </resource>
      <request>
         <method value="POST"></method>
         <url value="Endpoint"></url>
         <ifNoneExist value="identifier=http://highmed.org/fhir/NamingSystem/endpoint-identifier|Test_Endpoint"></ifNoneExist>
      </request>
   </entry>
</Bundle>